{
  "resourceType": "Bundle",
  "type": "collection",
  "timestamp": "2025-07-15T10:00:00+08:00",
  "entry": [
    {
      "fullUrl": "http://example.org/fhir/Patient/metabolic-syndrome-001",
      "resource": {
        "resourceType": "Patient",
        "id": "metabolic-syndrome-001",
        "meta": {
          "profile": ["http://twcore.mohw.gov.tw/fhir/StructureDefinition/tw-patient"]
        },
        "identifier": [
          {
            "system": "http://www.mohw.gov.tw/patient-id",
            "value": "U121745652"
          }
        ],
        "name": [
          {
            "family": "楊",
            "given": ["一一"],
            "text": "楊一一"
          }
        ],
        "gender": "male",
        "birthDate": "1991-12-14",
        "address": [
          {
            "use": "home",
            "postalCode": "4500",
            "city": "花蓮縣",
            "district": "秀林鄉",
            "text": "4500花蓮縣"
          }
        ],
        "telecom": [
          {
            "system": "phone",
            "value": "86"
          }
        ],
        "managingOrganization": {
          "reference": "Organization/siulin-health-center",
          "display": "秀林鄉衛生所"
        },
        "generalPractitioner": [
          {
            "reference": "Practitioner/tian-huiwen",
            "display": "田惠文"
          }
        ],
        "extension": [
          {
            "url": "http://twcore.mohw.gov.tw/fhir/StructureDefinition/tw-patient-social-history",
            "extension": [
              {
                "url": "drinking",
                "valueString": "偶爾喝酒或應酬才喝"
              },
              {
                "url": "exercise",
                "valueString": "有,且每週達150分鐘以上(2.5小時)"
              },
              {
                "url": "betelNut",
                "valueString": "不嚼檳榔"
              }
            ]
          }
        ]
      }
    },
    {
      "fullUrl": "http://example.org/fhir/Observation/bp-001",
      "resource": {
        "resourceType": "Observation",
        "id": "bp-001",
        "status": "final",
        "category": [
          {
            "coding": [
              {
                "system": "http://terminology.hl7.org/CodeSystem/observation-category",
                "code": "vital-signs",
                "display": "生命徵象"
              }
            ]
          }
        ],
        "code": {
          "coding": [
            {
              "system": "http://loinc.org",
              "code": "85354-9",
              "display": "Blood pressure panel with all children optional"
            }
          ],
          "text": "血壓"
        },
        "subject": {
          "reference": "Patient/metabolic-syndrome-001"
        },
        "effectiveDateTime": "2025-07-15T08:00:00+08:00",
        "component": [
          {
            "code": {
              "coding": [
                {
                  "system": "http://loinc.org",
                  "code": "8480-6",
                  "display": "Systolic blood pressure"
                }
              ],
              "text": "收縮壓"
            },
            "valueQuantity": {
              "value": 135,
              "unit": "mmHg",
              "system": "http://unitsofmeasure.org",
              "code": "mm[Hg]"
            }
          },
          {
            "code": {
              "coding": [
                {
                  "system": "http://loinc.org",
                  "code": "8462-4",
                  "display": "Diastolic blood pressure"
                }
              ],
              "text": "舒張壓"
            },
            "valueQuantity": {
              "value": 80,
              "unit": "mmHg",
              "system": "http://unitsofmeasure.org",
              "code": "mm[Hg]"
            }
          }
        ],
        "interpretation": [
          {
            "coding": [
              {
                "system": "http://terminology.hl7.org/CodeSystem/v3-ObservationInterpretation",
                "code": "H",
                "display": "High"
              }
            ],
            "text": "偏高"
          }
        ],
        "referenceRange": [
          {
            "low": {
              "value": 0,
              "unit": "mmHg"
            },
            "high": {
              "value": 130,
              "unit": "mmHg"
            },
            "text": "<130"
          }
        ]
      }
    },
    {
      "fullUrl": "http://example.org/fhir/Observation/glucose-001",
      "resource": {
        "resourceType": "Observation",
        "id": "glucose-001",
        "status": "final",
        "category": [
          {
            "coding": [
              {
                "system": "http://terminology.hl7.org/CodeSystem/observation-category",
                "code": "laboratory",
                "display": "檢驗"
              }
            ]
          }
        ],
        "code": {
          "coding": [
            {
              "system": "http://loinc.org",
              "code": "33747-0",
              "display": "Glucose [Mass/volume] in Blood --fasting"
            }
          ],
          "text": "空腹血糖"
        },
        "subject": {
          "reference": "Patient/metabolic-syndrome-001"
        },
        "effectiveDateTime": "2025-07-15T08:00:00+08:00",
        "valueQuantity": {
          "value": 90,
          "unit": "mg/dL",
          "system": "http://unitsofmeasure.org",
          "code": "mg/dL"
        },
        "interpretation": [
          {
            "coding": [
              {
                "system": "http://terminology.hl7.org/CodeSystem/v3-ObservationInterpretation",
                "code": "N",
                "display": "Normal"
              }
            ],
            "text": "正常"
          }
        ],
        "referenceRange": [
          {
            "high": {
              "value": 100,
              "unit": "mg/dL"
            },
            "text": "<100"
          }
        ]
      }
    },
    {
      "fullUrl": "http://example.org/fhir/Observation/triglycerides-001",
      "resource": {
        "resourceType": "Observation",
        "id": "triglycerides-001",
        "status": "final",
        "category": [
          {
            "coding": [
              {
                "system": "http://terminology.hl7.org/CodeSystem/observation-category",
                "code": "laboratory",
                "display": "檢驗"
              }
            ]
          }
        ],
        "code": {
          "coding": [
            {
              "system": "http://loinc.org",
              "code": "2571-8",
              "display": "Triglyceride [Mass/volume] in Serum or Plasma"
            }
          ],
          "text": "三酸甘油脂"
        },
        "subject": {
          "reference": "Patient/metabolic-syndrome-001"
        },
        "effectiveDateTime": "2025-07-15T08:00:00+08:00",
        "valueQuantity": {
          "value": 232,
          "unit": "mg/dL",
          "system": "http://unitsofmeasure.org",
          "code": "mg/dL"
        },
        "interpretation": [
          {
            "coding": [
              {
                "system": "http://terminology.hl7.org/CodeSystem/v3-ObservationInterpretation",
                "code": "H",
                "display": "High"
              }
            ],
            "text": "偏高"
          }
        ],
        "referenceRange": [
          {
            "high": {
              "value": 150,
              "unit": "mg/dL"
            },
            "text": "<150"
          }
        ]
      }
    },
    {
      "fullUrl": "http://example.org/fhir/Observation/hdl-001",
      "resource": {
        "resourceType": "Observation",
        "id": "hdl-001",
        "status": "final",
        "category": [
          {
            "coding": [
              {
                "system": "http://terminology.hl7.org/CodeSystem/observation-category",
                "code": "laboratory",
                "display": "檢驗"
              }
            ]
          }
        ],
        "code": {
          "coding": [
            {
              "system": "http://loinc.org",
              "code": "2085-9",
              "display": "Cholesterol in HDL [Mass/volume] in Serum or Plasma"
            }
          ],
          "text": "HDL膽固醇"
        },
        "subject": {
          "reference": "Patient/metabolic-syndrome-001"
        },
        "effectiveDateTime": "2025-07-15T08:00:00+08:00",
        "valueQuantity": {
          "value": 45,
          "unit": "mg/dL",
          "system": "http://unitsofmeasure.org",
          "code": "mg/dL"
        },
        "interpretation": [
          {
            "coding": [
              {
                "system": "http://terminology.hl7.org/CodeSystem/v3-ObservationInterpretation",
                "code": "N",
                "display": "Normal"
              }
            ],
            "text": "正常"
          }
        ],
        "referenceRange": [
          {
            "low": {
              "value": 40,
              "unit": "mg/dL"
            },
            "text": "M>40, F>50"
          }
        ]
      }
    },
    {
      "fullUrl": "http://example.org/fhir/Condition/metabolic-syndrome-diagnosis",
      "resource": {
        "resourceType": "Condition",
        "id": "metabolic-syndrome-diagnosis",
        "clinicalStatus": {
          "coding": [
            {
              "system": "http://terminology.hl7.org/CodeSystem/condition-clinical",
              "code": "active",
              "display": "Active"
            }
          ]
        },
        "verificationStatus": {
          "coding": [
            {
              "system": "http://terminology.hl7.org/CodeSystem/condition-ver-status",
              "code": "confirmed",
              "display": "Confirmed"
            }
          ]
        },
        "code": {
          "coding": [
            {
              "system": "http://snomed.info/sct",
              "code": "44054006",
              "display": "Metabolic syndrome"
            }
          ],
          "text": "代謝症候群"
        },
        "subject": {
          "reference": "Patient/metabolic-syndrome-001"
        },
        "onsetDateTime": "2025-07-15",
        "evidence": [
          {
            "detail": [
              {
                "reference": "Observation/bp-001"
              },
              {
                "reference": "Observation/triglycerides-001"
              }
            ]
          }
        ]
      }
    }
  ]
}
